File: battery-cells/battery_cell_cycler_data_corrected.csv
Time (s),Voltage (V),Current (A),Capacity (Ah)
0.0,3.0,1,0.000277778
5.00139,3.00167,1,0.00166667
10.0028,3.00333,1,0.00305556
15.0042,3.005,1,0.00444444
20.0056,3.00667,1,0.00583333
25.0069,3.00834,1,0.00722222
30.0083,3.01,1,0.00861111
35.0097,3.01167,1,0.01
40.0111,3.01334,1,0.0113889
45.0125,3.015,1,0.0127778
50.0139,3.01667,1,0.0141667
55.0153,3.01834,1,0.0155556
60.0167,3.02001,1,0.0169444
65.0181,3.02167,1,0.0183333
70.0194,3.02334,1,0.0197222
75.0208,3.02501,1,0.0211111
80.0222,3.02667,1,0.0225
85.0236,3.02834,1,0.0238889
90.025,3.03001,1,0.0252778
95.0264,3.03168,1,0.0266667
100.028,3.03334,1,0.0280556
105.029,3.03501,1,0.0294444
110.031,3.03668,1,0.0308333
115.032,3.03834,1,0.0322222
120.033,3.04001,1,0.0336111
125.035,3.04168,1,0.035
130.036,3.04335,1,0.0363889
135.038,3.04501,1,0.0377778
140.039,3.04668,1,0.0391667
145.04,3.04835,1,0.0405556
150.042,3.05001,1,0.0419444
155.043,3.05168,1,0.0433333
160.044,3.05335,1,0.0447222
165.046,3.05502,1,0.0461111
170.047,3.05668,1,0.0475
175.049,3.05835,1,0.0488889
180.05,3.06002,1,0.0502778
185.051,3.06168,1,0.0516667
190.053,3.06335,1,0.0530556
195.054,3.06502,1,0.0544444
200.056,3.06669,1,0.0558333
205.057,3.06835,1,0.0572222
210.058,3.07002,1,0.0586111
215.06,3.07169,1,0.06
220.061,3.07335,1,0.0613889
225.063,3.07502,1,0.0627778
230.064,3.07669,1,0.0641667
235.065,3.07836,1,0.0655556
240.067,3.08002,1,0.0669444
245.068,3.08169,1,0.0683333
250.069,3.08336,1,0.0697222
255.071,3.08502,1,0.0711111
260.072,3.08669,1,0.0725
265.074,3.08836,1,0.0738889
270.075,3.09003,1,0.0752778
275.076,3.09169,1,0.0766667
280.078,3.09336,1,0.0780556
285.079,3.09503,1,0.0794444
290.081,3.09669,1,0.0808333
295.082,3.09836,1,0.0822222
300.083,3.10003,1,0.0836111
305.085,3.10169,1,0.085
310.086,3.10336,1,0.0863889
315.088,3.10503,1,0.0877778
320.089,3.1067,1,0.0891667
325.09,3.10836,1,0.0905556
330.092,3.11003,1,0.0919444
335.093,3.1117,1,0.0933333
340.094,3.11336,1,0.0947222
345.096,3.11503,1,0.0961111
350.097,3.1167,1,0.0975
355.099,3.11837,1,0.0988889
360.1,3.12003,1,0.100278
365.101,3.1217,1,0.101667
370.103,3.12337,1,0.103056
375.104,3.12503,1,0.104444
380.106,3.1267,1,0.105833
385.107,3.12837,1,0.107222
390.108,3.13004,1,0.108611
395.11,3.1317,1,0.11
400.111,3.13337,1,0.111389
405.113,3.13504,1,0.112778
410.114,3.1367,1,0.114167
415.115,3.13837,1,0.115556
420.117,3.14004,1,0.116944
425.118,3.14171,1,0.118333
430.119,3.14337,1,0.119722
435.121,3.14504,1,0.121111
440.122,3.14671,1,0.1225
445.124,3.14837,1,0.123889
450.125,3.15004,1,0.125278
455.126,3.15171,1,0.126667
460.128,3.15338,1,0.128056
465.129,3.15504,1,0.129444
470.131,3.15671,1,0.130833
475.132,3.15838,1,0.132222
480.133,3.16004,1,0.133611
485.135,3.16171,1,0.135
490.136,3.16338,1,0.136389
495.138,3.16505,1,0.137778
500.139,3.16671,1,0.139167
505.14,3.16838,1,0.140556
510.142,3.17005,1,0.141944
515.143,3.17171,1,0.143333
520.144,3.17338,1,0.144722
525.146,3.17505,1,0.146111
530.147,3.17672,1,0.1475
535.149,3.17838,1,0.148889
540.15,3.18005,1,0.150278
545.151,3.18172,1,0.151667
550.153,3.18338,1,0.153056
555.154,3.18505,1,0.154444
560.156,3.18672,1,0.155833
565.157,3.18839,1,0.157222
570.158,3.19005,1,0.158611
575.16,3.19172,1,0.16
580.161,3.19339,1,0.161389
585.163,3.19505,1,0.162778
590.164,3.19672,1,0.164167
595.165,3.19839,1,0.165556
600.167,3.20006,1,0.166944
605.168,3.20172,1,0.168333
610.169,3.20339,1,0.169722
615.171,3.20506,1,0.171111
620.172,3.20672,1,0.1725
625.174,3.20839,1,0.173889
630.175,3.21006,1,0.175278
635.176,3.21173,1,0.176667
640.178,3.21339,1,0.178056
645.179,3.21506,1,0.179444
650.181,3.21673,1,0.180833
655.182,3.21839,1,0.182222
660.183,3.22006,1,0.183611
665.185,3.22173,1,0.185
670.186,3.2234,1,0.186389
675.188,3.22506,1,0.187778
680.189,3.22673,1,0.189167
685.19,3.2284,1,0.190556
690.192,3.23006,1,0.191944
695.193,3.23173,1,0.193333
700.194,3.2334,1,0.194722
705.196,3.23507,1,0.196111
710.197,3.23673,1,0.1975
715.199,3.2384,1,0.198889
720.2,3.24007,1,0.200278
725.201,3.24173,1,0.201667
730.203,3.2434,1,0.203056
735.204,3.24507,1,0.204444
740.206,3.24674,1,0.205833
745.207,3.2484,1,0.207222
750.208,3.25007,1,0.208611
755.21,3.25174,1,0.21
760.211,3.2534,1,0.211389
765.213,3.25507,1,0.212778
770.214,3.25674,1,0.214167
775.215,3.25841,1,0.215556
780.217,3.26007,1,0.216944
785.218,3.26174,1,0.218333
790.22,3.26341,1,0.219722
795.221,3.26507,1,0.221111
800.222,3.26674,1,0.2225
805.224,3.26841,1,0.223889
810.225,3.27008,1,0.225278
815.226,3.27174,1,0.226667
820.228,3.27341,1,0.228056
825.229,3.27508,1,0.229444
830.231,3.27674,1,0.230833
835.232,3.27841,1,0.232222
840.233,3.28008,1,0.233611
845.235,3.28174,1,0.235
850.236,3.28341,1,0.236389
855.238,3.28508,1,0.237778
860.239,3.28675,1,0.239167
865.24,3.28841,1,0.240556
870.242,3.29008,1,0.241944
875.243,3.29175,1,0.243333
880.245,3.29341,1,0.244722
885.246,3.29508,1,0.246111
890.247,3.29675,1,0.2475
895.249,3.29842,1,0.248889
900.25,3.30008,1,0.250278
905.251,3.30175,1,0.251667
910.253,3.30342,1,0.253056
915.254,3.30508,1,0.254444
920.256,3.30675,1,0.255833
925.257,3.30842,1,0.257222
930.258,3.31009,1,0.258611
935.26,3.31175,1,0.26
940.261,3.31342,1,0.261389
945.263,3.31509,1,0.262778
950.264,3.31675,1,0.264167
955.265,3.31842,1,0.265556
960.267,3.32009,1,0.266944
965.268,3.32176,1,0.268333
970.27,3.32342,1,0.269722
975.271,3.32509,1,0.271111
980.272,3.32676,1,0.2725
985.274,3.32842,1,0.273889
990.275,3.33009,1,0.275278
995.276,3.33176,1,0.276667
1000.28,3.33343,1,0.278056
1005.28,3.33509,1,0.279444
1010.28,3.33676,1,0.280833
1015.28,3.33843,1,0.282222
1020.28,3.34009,1,0.283611
1025.28,3.34176,1,0.285
1030.29,3.34343,1,0.286389
1035.29,3.3451,1,0.287778
1040.29,3.34676,1,0.289167
1045.29,3.34843,1,0.290556
1050.29,3.3501,1,0.291944
1055.29,3.35176,1,0.293333
1060.29,3.35343,1,0.294722
1065.3,3.3551,1,0.296111
1070.3,3.35677,1,0.2975
1075.3,3.35843,1,0.298889
1080.3,3.3601,1,0.300278
1085.3,3.36177,1,0.301667
1090.3,3.36343,1,0.303056
1095.3,3.3651,1,0.304444
1100.31,3.36677,1,0.305833
1105.31,3.36844,1,0.307222
1110.31,3.3701,1,0.308611
1115.31,3.37177,1,0.31
1120.31,3.37344,1,0.311389
1125.31,3.3751,1,0.312778
1130.31,3.37677,1,0.314167
1135.32,3.37844,1,0.315556
1140.32,3.38011,1,0.316944
1145.32,3.38177,1,0.318333
1150.32,3.38344,1,0.319722
1155.32,3.38511,1,0.321111
1160.32,3.38677,1,0.3225
1165.32,3.38844,1,0.323889
1170.33,3.39011,1,0.325278
1175.33,3.39178,1,0.326667
1180.33,3.39344,1,0.328056
1185.33,3.39511,1,0.329444
1190.33,3.39678,1,0.330833
1195.33,3.39844,1,0.332222
1200.33,3.40011,1,0.333611
1205.33,3.40178,1,0.335
1210.34,3.40345,1,0.336389
1215.34,3.40511,1,0.337778
1220.34,3.40678,1,0.339167
1225.34,3.40845,1,0.340556
1230.34,3.41011,1,0.341944
1235.34,3.41178,1,0.343333
1240.34,3.41345,1,0.344722
1245.35,3.41512,1,0.346111
1250.35,3.41678,1,0.3475
1255.35,3.41845,1,0.348889
1260.35,3.42012,1,0.350278
1265.35,3.42178,1,0.351667
1270.35,3.42345,1,0.353056
1275.35,3.42512,1,0.354444
1280.36,3.42679,1,0.355833
1285.36,3.42845,1,0.357222
1290.36,3.43012,1,0.358611
1295.36,3.43179,1,0.36
1300.36,3.43345,1,0.361389
1305.36,3.43512,1,0.362778
1310.36,3.43679,1,0.364167
1315.37,3.43846,1,0.365556
1320.37,3.44012,1,0.366944
1325.37,3.44179,1,0.368333
1330.37,3.44346,1,0.369722
1335.37,3.44512,1,0.371111
1340.37,3.44679,1,0.3725
1345.37,3.44846,1,0.373889
1350.38,3.45013,1,0.375278
1355.38,3.45179,1,0.376667
1360.38,3.45346,1,0.378056
1365.38,3.45513,1,0.379444
1370.38,3.45679,1,0.380833
1375.38,3.45846,1,0.382222
1380.38,3.46013,1,0.383611
1385.38,3.46179,1,0.385
1390.39,3.46346,1,0.386389
1395.39,3.46513,1,0.387778
1400.39,3.4668,1,0.389167
1405.39,3.46846,1,0.390556
1410.39,3.47013,1,0.391944
1415.39,3.4718,1,0.393333
1420.39,3.47346,1,0.394722
1425.4,3.47513,1,0.396111
1430.4,3.4768,1,0.3975
1435.4,3.47847,1,0.398889
1440.4,3.48013,1,0.400278
1445.4,3.4818,1,0.401667
1450.4,3.48347,1,0.403056
1455.4,3.48513,1,0.404444
1460.41,3.4868,1,0.405833
1465.41,3.48847,1,0.407222
1470.41,3.49014,1,0.408611
1475.41,3.4918,1,0.41
1480.41,3.49347,1,0.411389
1485.41,3.49514,1,0.412778
1490.41,3.4968,1,0.414167
1495.42,3.49847,1,0.415556
1500.42,3.50014,1,0.416944
1505.42,3.50181,1,0.418333
1510.42,3.50347,1,0.419722
1515.42,3.50514,1,0.421111
1520.42,3.50681,1,0.4225
1525.42,3.50847,1,0.423889
1530.43,3.51014,1,0.425278
1535.43,3.51181,1,0.426667
1540.43,3.51348,1,0.428056
1545.43,3.51514,1,0.429444
1550.43,3.51681,1,0.430833
1555.43,3.51848,1,0.432222
1560.43,3.52014,1,0.433611
1565.43,3.52181,1,0.435
1570.44,3.52348,1,0.436389
1575.44,3.52515,1,0.437778
1580.44,3.52681,1,0.439167
1585.44,3.52848,1,0.440556
1590.44,3.53015,1,0.441944
1595.44,3.53181,1,0.443333
1600.44,3.53348,1,0.444722
1605.45,3.53515,1,0.446111
1610.45,3.53682,1,0.4475
1615.45,3.53848,1,0.448889
1620.45,3.54015,1,0.450278
1625.45,3.54182,1,0.451667
1630.45,3.54348,1,0.453056
1635.45,3.54515,1,0.454444
1640.46,3.54682,1,0.455833
1645.46,3.54849,1,0.457222
1650.46,3.55015,1,0.458611
1655.46,3.55182,1,0.46
1660.46,3.55349,1,0.461389
1665.46,3.55515,1,0.462778
1670.46,3.55682,1,0.464167
1675.47,3.55849,1,0.465556
1680.47,3.56016,1,0.466944
1685.47,3.56182,1,0.468333
1690.47,3.56349,1,0.469722
1695.47,3.56516,1,0.471111
1700.47,3.56682,1,0.4725
1705.47,3.56849,1,0.473889
1710.48,3.57016,1,0.475278
1715.48,3.57183,1,0.476667
1720.48,3.57349,1,0.478056
1725.48,3.57516,1,0.479444
1730.48,3.57683,1,0.480833
1735.48,3.57849,1,0.482222
1740.48,3.58016,1,0.483611
1745.48,3.58183,1,0.485
1750.49,3.5835,1,0.486389
1755.49,3.58516,1,0.487778
1760.49,3.58683,1,0.489167
1765.49,3.5885,1,0.490556
1770.49,3.59016,1,0.491944
1775.49,3.59183,1,0.493333
1780.49,3.5935,1,0.494722
1785.5,3.59517,1,0.496111
1790.5,3.59683,1,0.4975
1795.5,3.5985,1,0.498889
1800.5,3.60017,1,0.500278
1805.5,3.60183,1,0.501667
1810.5,3.6035,1,0.503056
1815.5,3.60517,1,0.504444
1820.51,3.60684,1,0.505833
1825.51,3.6085,1,0.507222
1830.51,3.61017,1,0.508611
1835.51,3.61184,1,0.51
1840.51,3.6135,1,0.511389
1845.51,3.61517,1,0.512778
1850.51,3.61684,1,0.514167
1855.52,3.61851,1,0.515556
1860.52,3.62017,1,0.516944
1865.52,3.62184,1,0.518333
1870.52,3.62351,1,0.519722
1875.52,3.62517,1,0.521111
1880.52,3.62684,1,0.5225
1885.52,3.62851,1,0.523889
1890.53,3.63018,1,0.525278
1895.53,3.63184,1,0.526667
1900.53,3.63351,1,0.528056
1905.53,3.63518,1,0.529444
1910.53,3.63684,1,0.530833
1915.53,3.63851,1,0.532222
1920.53,3.64018,1,0.533611
1925.53,3.64184,1,0.535
1930.54,3.64351,1,0.536389
1935.54,3.64518,1,0.537778
1940.54,3.64685,1,0.539167
1945.54,3.64851,1,0.540556
1950.54,3.65018,1,0.541944
1955.54,3.65185,1,0.543333
1960.54,3.65351,1,0.544722
1965.55,3.65518,1,0.546111
1970.55,3.65685,1,0.5475
1975.55,3.65852,1,0.548889
1980.55,3.66018,1,0.550278
1985.55,3.66185,1,0.551667
1990.55,3.66352,1,0.553056
1995.55,3.66518,1,0.554444
2000.56,3.66685,1,0.555833
2005.56,3.66852,1,0.557222
2010.56,3.67019,1,0.558611
2015.56,3.67185,1,0.56
2020.56,3.67352,1,0.561389
2025.56,3.67519,1,0.562778
2030.56,3.67685,1,0.564167
2035.57,3.67852,1,0.565556
2040.57,3.68019,1,0.566944
2045.57,3.68186,1,0.568333
2050.57,3.68352,1,0.569722
2055.57,3.68519,1,0.571111
2060.57,3.68686,1,0.5725
2065.57,3.68852,1,0.573889
2070.58,3.69019,1,0.575278
2075.58,3.69186,1,0.576667
2080.58,3.69353,1,0.578056
2085.58,3.69519,1,0.579444
2090.58,3.69686,1,0.580833
2095.58,3.69853,1,0.582222
2100.58,3.70019,1,0.583611
2105.58,3.70186,1,0.585
2110.59,3.70353,1,0.586389
2115.59,3.7052,1,0.587778
2120.59,3.70686,1,0.589167
2125.59,3.70853,1,0.590556
2130.59,3.7102,1,0.591944
2135.59,3.71186,1,0.593333
2140.59,3.71353,1,0.594722
2145.6,3.7152,1,0.596111
2150.6,3.71687,1,0.5975
2155.6,3.71853,1,0.598889
2160.6,3.7202,1,0.600278
2165.6,3.72187,1,0.601667
2170.6,3.72353,1,0.603056
2175.6,3.7252,1,0.604444
2180.61,3.72687,1,0.605833
2185.61,3.72854,1,0.607222
2190.61,3.7302,1,0.608611
2195.61,3.73187,1,0.61
2200.61,3.73354,1,0.611389
2205.61,3.7352,1,0.612778
2210.61,3.73687,1,0.614167
2215.62,3.73854,1,0.615556
2220.62,3.74021,1,0.616944
2225.62,3.74187,1,0.618333
2230.62,3.74354,1,0.619722
2235.62,3.74521,1,0.621111
2240.62,3.74687,1,0.6225
2245.62,3.74854,1,0.623889
2250.63,3.75021,1,0.625278
2255.63,3.75188,1,0.626667
2260.63,3.75354,1,0.628056
2265.63,3.75521,1,0.629444
2270.63,3.75688,1,0.630833
2275.63,3.75854,1,0.632222
2280.63,3.76021,1,0.633611
2285.63,3.76188,1,0.635
2290.64,3.76355,1,0.636389
2295.64,3.76521,1,0.637778
2300.64,3.76688,1,0.639167
2305.64,3.76855,1,0.640556
2310.64,3.77021,1,0.641944
2315.64,3.77188,1,0.643333
2320.64,3.77355,1,0.644722
2325.65,3.77522,1,0.646111
2330.65,3.77688,1,0.6475
2335.65,3.77855,1,0.648889
2340.65,3.78022,1,0.650278
2345.65,3.78188,1,0.651667
2350.65,3.78355,1,0.653056
2355.65,3.78522,1,0.654444
2360.66,3.78689,1,0.655833
2365.66,3.78855,1,0.657222
2370.66,3.79022,1,0.658611
2375.66,3.79189,1,0.66
2380.66,3.79355,1,0.661389
2385.66,3.79522,1,0.662778
2390.66,3.79689,1,0.664167
2395.67,3.79856,1,0.665556
2400.67,3.80022,1,0.666944
2405.67,3.80189,1,0.668333
2410.67,3.80356,1,0.669722
2415.67,3.80522,1,0.671111
2420.67,3.80689,1,0.6725
2425.67,3.80856,1,0.673889
2430.68,3.81023,1,0.675278
2435.68,3.81189,1,0.676667
2440.68,3.81356,1,0.678056
2445.68,3.81523,1,0.679444
2450.68,3.81689,1,0.680833
2455.68,3.81856,1,0.682222
2460.68,3.82023,1,0.683611
2465.68,3.82189,1,0.685
2470.69,3.82356,1,0.686389
2475.69,3.82523,1,0.687778
2480.69,3.8269,1,0.689167
2485.69,3.82856,1,0.690556
2490.69,3.83023,1,0.691944
2495.69,3.8319,1,0.693333
2500.69,3.83356,1,0.694722
2505.7,3.83523,1,0.696111
2510.7,3.8369,1,0.6975
2515.7,3.83857,1,0.698889
2520.7,3.84023,1,0.700278
2525.7,3.8419,1,0.701667
2530.7,3.84357,1,0.703056
2535.7,3.84523,1,0.704444
2540.71,3.8469,1,0.705833
2545.71,3.84857,1,0.707222
2550.71,3.85024,1,0.708611
2555.71,3.8519,1,0.71
2560.71,3.85357,1,0.711389
2565.71,3.85524,1,0.712778
2570.71,3.8569,1,0.714167
2575.72,3.85857,1,0.715556
2580.72,3.86024,1,0.716944
2585.72,3.86191,1,0.718333
2590.72,3.86357,1,0.719722
2595.72,3.86524,1,0.721111
2600.72,3.86691,1,0.7225
2605.72,3.86857,1,0.723889
2610.73,3.87024,1,0.725278
2615.73,3.87191,1,0.726667
2620.73,3.87358,1,0.728056
2625.73,3.87524,1,0.729444
2630.73,3.87691,1,0.730833
2635.73,3.87858,1,0.732222
2640.73,3.88024,1,0.733611
2645.73,3.88191,1,0.735
2650.74,3.88358,1,0.736389
2655.74,3.88525,1,0.737778
2660.74,3.88691,1,0.739167
2665.74,3.88858,1,0.740556
2670.74,3.89025,1,0.741944
2675.74,3.89191,1,0.743333
2680.74,3.89358,1,0.744722
2685.75,3.89525,1,0.746111
2690.75,3.89692,1,0.7475
2695.75,3.89858,1,0.748889
2700.75,3.90025,1,0.750278
2705.75,3.90192,1,0.751667
2710.75,3.90358,1,0.753056
2715.75,3.90525,1,0.754444
2720.76,3.90692,1,0.755833
2725.76,3.90859,1,0.757222
2730.76,3.91025,1,0.758611
2735.76,3.91192,1,0.76
2740.76,3.91359,1,0.761389
2745.76,3.91525,1,0.762778
2750.76,3.91692,1,0.764167
2755.77,3.91859,1,0.765556
2760.77,3.92026,1,0.766944
2765.77,3.92192,1,0.768333
2770.77,3.92359,1,0.769722
2775.77,3.92526,1,0.771111
2780.77,3.92692,1,0.7725
2785.77,3.92859,1,0.773889
2790.78,3.93026,1,0.775278
2795.78,3.93193,1,0.776667
2800.78,3.93359,1,0.778056
2805.78,3.93526,1,0.779444
2810.78,3.93693,1,0.780833
2815.78,3.93859,1,0.782222
2820.78,3.94026,1,0.783611
2825.78,3.94193,1,0.785
2830.79,3.9436,1,0.786389
2835.79,3.94526,1,0.787778
2840.79,3.94693,1,0.789167
2845.79,3.9486,1,0.790556
2850.79,3.95026,1,0.791944
2855.79,3.95193,1,0.793333
2860.79,3.9536,1,0.794722
2865.8,3.95527,1,0.796111
2870.8,3.95693,1,0.7975
2875.8,3.9586,1,0.798889
2880.8,3.96027,1,0.800278
2885.8,3.96193,1,0.801667
2890.8,3.9636,1,0.803056
2895.8,3.96527,1,0.804444
2900.81,3.96694,1,0.805833
2905.81,3.9686,1,0.807222
2910.81,3.97027,1,0.808611
2915.81,3.97194,1,0.81
2920.81,3.9736,1,0.811389
2925.81,3.97527,1,0.812778
2930.81,3.97694,1,0.814167
2935.82,3.97861,1,0.815556
2940.82,3.98027,1,0.816944
2945.82,3.98194,1,0.818333
2950.82,3.98361,1,0.819722
2955.82,3.98527,1,0.821111
2960.82,3.98694,1,0.8225
2965.82,3.98861,1,0.823889
2970.83,3.99028,1,0.825278
2975.83,3.99194,1,0.826667
2980.83,3.99361,1,0.828056
2985.83,3.99528,1,0.829444
2990.83,3.99694,1,0.830833
2995.83,3.99861,1,0.832222
3000.83,4.00028,1,0.833611
3005.83,4.00194,1,0.835
3010.84,4.00361,1,0.836389
3015.84,4.00528,1,0.837778
3020.84,4.00695,1,0.839167
3025.84,4.00861,1,0.840556
3030.84,4.01028,1,0.841944
3035.84,4.01195,1,0.843333
3040.84,4.01361,1,0.844722
3045.85,4.01528,1,0.846111
3050.85,4.01695,1,0.8475
3055.85,4.01862,1,0.848889
3060.85,4.02028,1,0.850278
3065.85,4.02195,1,0.851667
3070.85,4.02362,1,0.853056
3075.85,4.02528,1,0.854444
3080.86,4.02695,1,0.855833
3085.86,4.02862,1,0.857222
3090.86,4.03029,1,0.858611
3095.86,4.03195,1,0.86
3100.86,4.03362,1,0.861389
3105.86,4.03529,1,0.862778
3110.86,4.03695,1,0.864167
3115.87,4.03862,1,0.865556
3120.87,4.04029,1,0.866944
3125.87,4.04196,1,0.868333
3130.87,4.04362,1,0.869722
3135.87,4.04529,1,0.871111
3140.87,4.04696,1,0.8725
3145.87,4.04862,1,0.873889
3150.88,4.05029,1,0.875278
3155.88,4.05196,1,0.876667
3160.88,4.05363,1,0.878056
3165.88,4.05529,1,0.879444
3170.88,4.05696,1,0.880833
3175.88,4.05863,1,0.882222
3180.88,4.06029,1,0.883611
3185.88,4.06196,1,0.885
3190.89,4.06363,1,0.886389
3195.89,4.0653,1,0.887778
3200.89,4.06696,1,0.889167
3205.89,4.06863,1,0.890556
3210.89,4.0703,1,0.891944
3215.89,4.07196,1,0.893333
3220.89,4.07363,1,0.894722
3225.9,4.0753,1,0.896111
3230.9,4.07697,1,0.8975
3235.9,4.07863,1,0.898889
3240.9,4.0803,1,0.900278
3245.9,4.08197,1,0.901667
3250.9,4.08363,1,0.903056
3255.9,4.0853,1,0.904444
3260.91,4.08697,1,0.905833
3265.91,4.08864,1,0.907222
3270.91,4.0903,1,0.908611
3275.91,4.09197,1,0.91
3280.91,4.09364,1,0.911389
3285.91,4.0953,1,0.912778
3290.91,4.09697,1,0.914167
3295.92,4.09864,1,0.915556
3300.92,4.10031,1,0.916944
3305.92,4.10197,1,0.918333
3310.92,4.10364,1,0.919722
3315.92,4.10531,1,0.921111
3320.92,4.10697,1,0.9225
3325.92,4.10864,1,0.923889
3330.93,4.11031,1,0.925278
3335.93,4.11198,1,0.926667
3340.93,4.11364,1,0.928056
3345.93,4.11531,1,0.929444
3350.93,4.11698,1,0.930833
3355.93,4.11864,1,0.932222
3360.93,4.12031,1,0.933611
3365.93,4.12198,1,0.935
3370.94,4.12365,1,0.936389
3375.94,4.12531,1,0.937778
3380.94,4.12698,1,0.939167
3385.94,4.12865,1,0.940556
3390.94,4.13031,1,0.941944
3395.94,4.13198,1,0.943333
3400.94,4.13365,1,0.944722
3405.95,4.13532,1,0.946111
3410.95,4.13698,1,0.9475
3415.95,4.13865,1,0.948889
3420.95,4.14032,1,0.950278
3425.95,4.14198,1,0.951667
3430.95,4.14365,1,0.953056
3435.95,4.14532,1,0.954444
3440.96,4.14699,1,0.955833
3445.96,4.14865,1,0.957222
3450.96,4.15032,1,0.958611
3455.96,4.15199,1,0.96
3460.96,4.15365,1,0.961389
3465.96,4.15532,1,0.962778
3470.96,4.15699,1,0.964167
3475.97,4.15866,1,0.965556
3480.97,4.16032,1,0.966944
3485.97,4.16199,1,0.968333
3490.97,4.16366,1,0.969722
3495.97,4.16532,1,0.971111
3500.97,4.16699,1,0.9725
3505.97,4.16866,1,0.973889
3510.98,4.17033,1,0.975278
3515.98,4.17199,1,0.976667
3520.98,4.17366,1,0.978056
3525.98,4.17533,1,0.979444
3530.98,4.17699,1,0.980833
3535.98,4.17866,1,0.982222
3540.98,4.18033,1,0.983611
3545.98,4.18199,1,0.985
3550.99,4.18366,1,0.986389
3555.99,4.18533,1,0.987778
3560.99,4.187,1,0.989167
3565.99,4.18866,1,0.990556
3570.99,4.19033,1,0.991944
3575.99,4.192,1,0.993333
3580.99,4.19366,1,0.994722
3586,4.19533,1,0.996111
3591,4.197,1,0.9975
3596,4.19867,1,0.998889
3601,4.19967,-1,0.999444
3606,4.198,-1,0.998056
3611,4.19633,-1,0.996667
3616,4.19467,-1,0.995278
3621.01,4.193,-1,0.993889
3626.01,4.19133,-1,0.9925
3631.01,4.18966,-1,0.991111
3636.01,4.188,-1,0.989722
3641.01,4.18633,-1,0.988333
3646.01,4.18466,-1,0.986944
3651.01,4.183,-1,0.985556
3656.02,4.18133,-1,0.984167
3661.02,4.17966,-1,0.982778
3666.02,4.17799,-1,0.981389
3671.02,4.17633,-1,0.98
3676.02,4.17466,-1,0.978611
3681.02,4.17299,-1,0.977222
3686.02,4.17133,-1,0.975833
3691.03,4.16966,-1,0.974444
3696.03,4.16799,-1,0.973056
3701.03,4.16632,-1,0.971667
3706.03,4.16466,-1,0.970278
3711.03,4.16299,-1,0.968889
3716.03,4.16132,-1,0.9675
3721.03,4.15966,-1,0.966111
3726.04,4.15799,-1,0.964722
3731.04,4.15632,-1,0.963333
3736.04,4.15465,-1,0.961944
3741.04,4.15299,-1,0.960556
3746.04,4.15132,-1,0.959167
3751.04,4.14965,-1,0.957778
3756.04,4.14799,-1,0.956389
3761.04,4.14632,-1,0.955
3766.05,4.14465,-1,0.953611
3771.05,4.14298,-1,0.952222
3776.05,4.14132,-1,0.950833
3781.05,4.13965,-1,0.949444
3786.05,4.13798,-1,0.948056
3791.05,4.13632,-1,0.946667
3796.05,4.13465,-1,0.945278
3801.06,4.13298,-1,0.943889
3806.06,4.13131,-1,0.9425
3811.06,4.12965,-1,0.941111
3816.06,4.12798,-1,0.939722
3821.06,4.12631,-1,0.938333
3826.06,4.12465,-1,0.936944
3831.06,4.12298,-1,0.935556
3836.07,4.12131,-1,0.934167
3841.07,4.11964,-1,0.932778
3846.07,4.11798,-1,0.931389
3851.07,4.11631,-1,0.93
3856.07,4.11464,-1,0.928611
3861.07,4.11298,-1,0.927222
3866.07,4.11131,-1,0.925833
3871.08,4.10964,-1,0.924444
3876.08,4.10797,-1,0.923056
3881.08,4.10631,-1,0.921667
3886.08,4.10464,-1,0.920278
3891.08,4.10297,-1,0.918889
3896.08,4.10131,-1,0.9175
3901.08,4.09964,-1,0.916111
3906.09,4.09797,-1,0.914722
3911.09,4.0963,-1,0.913333
3916.09,4.09464,-1,0.911944
3921.09,4.09297,-1,0.910556
3926.09,4.0913,-1,0.909167
3931.09,4.08964,-1,0.907778
3936.09,4.08797,-1,0.906389
3941.09,4.0863,-1,0.905
3946.1,4.08463,-1,0.903611
3951.1,4.08297,-1,0.902222
3956.1,4.0813,-1,0.900833
3961.1,4.07963,-1,0.899444
3966.1,4.07797,-1,0.898056
3971.1,4.0763,-1,0.896667
3976.1,4.07463,-1,0.895278
3981.11,4.07296,-1,0.893889
3986.11,4.0713,-1,0.8925
3991.11,4.06963,-1,0.891111
3996.11,4.06796,-1,0.889722
4001.11,4.0663,-1,0.888333
4006.11,4.06463,-1,0.886944
4011.11,4.06296,-1,0.885556
4016.12,4.06129,-1,0.884167
4021.12,4.05963,-1,0.882778
4026.12,4.05796,-1,0.881389
4031.12,4.05629,-1,0.88
4036.12,4.05463,-1,0.878611
4041.12,4.05296,-1,0.877222
4046.12,4.05129,-1,0.875833
4051.13,4.04962,-1,0.874444
4056.13,4.04796,-1,0.873056
4061.13,4.04629,-1,0.871667
4066.13,4.04462,-1,0.870278
4071.13,4.04296,-1,0.868889
4076.13,4.04129,-1,0.8675
4081.13,4.03962,-1,0.866111
4086.14,4.03795,-1,0.864722
4091.14,4.03629,-1,0.863333
4096.14,4.03462,-1,0.861944
4101.14,4.03295,-1,0.860556
4106.14,4.03129,-1,0.859167
4111.14,4.02962,-1,0.857778
4116.14,4.02795,-1,0.856389
4121.14,4.02629,-1,0.855
4126.15,4.02462,-1,0.853611
4131.15,4.02295,-1,0.852222
4136.15,4.02128,-1,0.850833
4141.15,4.01962,-1,0.849444
4146.15,4.01795,-1,0.848056
4151.15,4.01628,-1,0.846667
4156.15,4.01462,-1,0.845278
4161.16,4.01295,-1,0.843889
4166.16,4.01128,-1,0.8425
4171.16,4.00961,-1,0.841111
4176.16,4.00795,-1,0.839722
4181.16,4.00628,-1,0.838333
4186.16,4.00461,-1,0.836944
4191.16,4.00295,-1,0.835556
4196.17,4.00128,-1,0.834167
4201.17,3.99961,-1,0.832778
4206.17,3.99794,-1,0.831389
4211.17,3.99628,-1,0.83
4216.17,3.99461,-1,0.828611
4221.17,3.99294,-1,0.827222
4226.17,3.99128,-1,0.825833
4231.18,3.98961,-1,0.824444
4236.18,3.98794,-1,0.823056
4241.18,3.98627,-1,0.821667
4246.18,3.98461,-1,0.820278
4251.18,3.98294,-1,0.818889
4256.18,3.98127,-1,0.8175
4261.18,3.97961,-1,0.816111
4266.19,3.97794,-1,0.814722
4271.19,3.97627,-1,0.813333
4276.19,3.9746,-1,0.811944
4281.19,3.97294,-1,0.810556
4286.19,3.97127,-1,0.809167
4291.19,3.9696,-1,0.807778
4296.19,3.96794,-1,0.806389
4301.19,3.96627,-1,0.805
4306.2,3.9646,-1,0.803611
4311.2,3.96293,-1,0.802222
4316.2,3.96127,-1,0.800833
4321.2,3.9596,-1,0.799444
4326.2,3.95793,-1,0.798056
4331.2,3.95627,-1,0.796667
4336.2,3.9546,-1,0.795278
4341.21,3.95293,-1,0.793889
4346.21,3.95126,-1,0.7925
4351.21,3.9496,-1,0.791111
4356.21,3.94793,-1,0.789722
4361.21,3.94626,-1,0.788333
4366.21,3.9446,-1,0.786944
4371.21,3.94293,-1,0.785556
4376.22,3.94126,-1,0.784167
4381.22,3.93959,-1,0.782778
4386.22,3.93793,-1,0.781389
4391.22,3.93626,-1,0.78
4396.22,3.93459,-1,0.778611
4401.22,3.93293,-1,0.777222
4406.22,3.93126,-1,0.775833
4411.23,3.92959,-1,0.774444
4416.23,3.92792,-1,0.773056
4421.23,3.92626,-1,0.771667
4426.23,3.92459,-1,0.770278
4431.23,3.92292,-1,0.768889
4436.23,3.92126,-1,0.7675
4441.23,3.91959,-1,0.766111
4446.24,3.91792,-1,0.764722
4451.24,3.91625,-1,0.763333
4456.24,3.91459,-1,0.761944
4461.24,3.91292,-1,0.760556
4466.24,3.91125,-1,0.759167
4471.24,3.90959,-1,0.757778
4476.24,3.90792,-1,0.756389
4481.24,3.90625,-1,0.755
4486.25,3.90458,-1,0.753611
4491.25,3.90292,-1,0.752222
4496.25,3.90125,-1,0.750833
4501.25,3.89958,-1,0.749444
4506.25,3.89792,-1,0.748056
4511.25,3.89625,-1,0.746667
4516.25,3.89458,-1,0.745278
4521.26,3.89291,-1,0.743889
4526.26,3.89125,-1,0.7425
4531.26,3.88958,-1,0.741111
4536.26,3.88791,-1,0.739722
4541.26,3.88625,-1,0.738333
4546.26,3.88458,-1,0.736944
4551.26,3.88291,-1,0.735556
4556.27,3.88124,-1,0.734167
4561.27,3.87958,-1,0.732778
4566.27,3.87791,-1,0.731389
4571.27,3.87624,-1,0.73
4576.27,3.87458,-1,0.728611
4581.27,3.87291,-1,0.727222
4586.27,3.87124,-1,0.725833
4591.28,3.86957,-1,0.724444
4596.28,3.86791,-1,0.723056
4601.28,3.86624,-1,0.721667
4606.28,3.86457,-1,0.720278
4611.28,3.86291,-1,0.718889
4616.28,3.86124,-1,0.7175
4621.28,3.85957,-1,0.716111
4626.29,3.8579,-1,0.714722
4631.29,3.85624,-1,0.713333
4636.29,3.85457,-1,0.711944
4641.29,3.8529,-1,0.710556
4646.29,3.85124,-1,0.709167
4651.29,3.84957,-1,0.707778
4656.29,3.8479,-1,0.706389
4661.29,3.84624,-1,0.705
4666.3,3.84457,-1,0.703611
4671.3,3.8429,-1,0.702222
4676.3,3.84123,-1,0.700833
4681.3,3.83957,-1,0.699444
4686.3,3.8379,-1,0.698056
4691.3,3.83623,-1,0.696667
4696.3,3.83457,-1,0.695278
4701.31,3.8329,-1,0.693889
4706.31,3.83123,-1,0.6925
4711.31,3.82956,-1,0.691111
4716.31,3.8279,-1,0.689722
4721.31,3.82623,-1,0.688333
4726.31,3.82456,-1,0.686944
4731.31,3.8229,-1,0.685556
4736.32,3.82123,-1,0.684167
4741.32,3.81956,-1,0.682778
4746.32,3.81789,-1,0.681389
4751.32,3.81623,-1,0.68
4756.32,3.81456,-1,0.678611
4761.32,3.81289,-1,0.677222
4766.32,3.81123,-1,0.675833
4771.33,3.80956,-1,0.674444
4776.33,3.80789,-1,0.673056
4781.33,3.80622,-1,0.671667
4786.33,3.80456,-1,0.670278
4791.33,3.80289,-1,0.668889
4796.33,3.80122,-1,0.6675
4801.33,3.79956,-1,0.666111
4806.34,3.79789,-1,0.664722
4811.34,3.79622,-1,0.663333
4816.34,3.79455,-1,0.661944
4821.34,3.79289,-1,0.660556
4826.34,3.79122,-1,0.659167
4831.34,3.78955,-1,0.657778
4836.34,3.78789,-1,0.656389
4841.34,3.78622,-1,0.655
4846.35,3.78455,-1,0.653611
4851.35,3.78288,-1,0.652222
4856.35,3.78122,-1,0.650833
4861.35,3.77955,-1,0.649444
4866.35,3.77788,-1,0.648056
4871.35,3.77622,-1,0.646667
4876.35,3.77455,-1,0.645278
4881.36,3.77288,-1,0.643889
4886.36,3.77121,-1,0.6425
4891.36,3.76955,-1,0.641111
4896.36,3.76788,-1,0.639722
4901.36,3.76621,-1,0.638333
4906.36,3.76455,-1,0.636944
4911.36,3.76288,-1,0.635556
4916.37,3.76121,-1,0.634167
4921.37,3.75954,-1,0.632778
4926.37,3.75788,-1,0.631389
4931.37,3.75621,-1,0.63
4936.37,3.75454,-1,0.628611
4941.37,3.75288,-1,0.627222
4946.37,3.75121,-1,0.625833
4951.38,3.74954,-1,0.624444
4956.38,3.74787,-1,0.623056
4961.38,3.74621,-1,0.621667
4966.38,3.74454,-1,0.620278
4971.38,3.74287,-1,0.618889
4976.38,3.74121,-1,0.6175
4981.38,3.73954,-1,0.616111
4986.39,3.73787,-1,0.614722
4991.39,3.7362,-1,0.613333
4996.39,3.73454,-1,0.611944
5001.39,3.73287,-1,0.610556
5006.39,3.7312,-1,0.609167
5011.39,3.72954,-1,0.607778
5016.39,3.72787,-1,0.606389
5021.39,3.7262,-1,0.605
5026.4,3.72453,-1,0.603611
5031.4,3.72287,-1,0.602222
5036.4,3.7212,-1,0.600833
5041.4,3.71953,-1,0.599444
5046.4,3.71787,-1,0.598056
5051.4,3.7162,-1,0.596667
5056.4,3.71453,-1,0.595278
5061.41,3.71286,-1,0.593889
5066.41,3.7112,-1,0.5925
5071.41,3.70953,-1,0.591111
5076.41,3.70786,-1,0.589722
5081.41,3.7062,-1,0.588333
5086.41,3.70453,-1,0.586944
5091.41,3.70286,-1,0.585556
5096.42,3.70119,-1,0.584167
5101.42,3.69953,-1,0.582778
5106.42,3.69786,-1,0.581389
5111.42,3.69619,-1,0.58
5116.42,3.69453,-1,0.578611
5121.42,3.69286,-1,0.577222
5126.42,3.69119,-1,0.575833
5131.43,3.68952,-1,0.574444
5136.43,3.68786,-1,0.573056
5141.43,3.68619,-1,0.571667
5146.43,3.68452,-1,0.570278
5151.43,3.68286,-1,0.568889
5156.43,3.68119,-1,0.5675
5161.43,3.67952,-1,0.566111
5166.44,3.67785,-1,0.564722
5171.44,3.67619,-1,0.563333
5176.44,3.67452,-1,0.561944
5181.44,3.67285,-1,0.560556
5186.44,3.67119,-1,0.559167
5191.44,3.66952,-1,0.557778
5196.44,3.66785,-1,0.556389
5201.44,3.66619,-1,0.555
5206.45,3.66452,-1,0.553611
5211.45,3.66285,-1,0.552222
5216.45,3.66118,-1,0.550833
5221.45,3.65952,-1,0.549444
5226.45,3.65785,-1,0.548056
5231.45,3.65618,-1,0.546667
5236.45,3.65452,-1,0.545278
5241.46,3.65285,-1,0.543889
5246.46,3.65118,-1,0.5425
5251.46,3.64951,-1,0.541111
5256.46,3.64785,-1,0.539722
5261.46,3.64618,-1,0.538333
5266.46,3.64451,-1,0.536944
5271.46,3.64285,-1,0.535556
5276.47,3.64118,-1,0.534167
5281.47,3.63951,-1,0.532778
5286.47,3.63784,-1,0.531389
5291.47,3.63618,-1,0.53
5296.47,3.63451,-1,0.528611
5301.47,3.63284,-1,0.527222
5306.47,3.63118,-1,0.525833
5311.48,3.62951,-1,0.524444
5316.48,3.62784,-1,0.523056
5321.48,3.62617,-1,0.521667
5326.48,3.62451,-1,0.520278
5331.48,3.62284,-1,0.518889
5336.48,3.62117,-1,0.5175
5341.48,3.61951,-1,0.516111
5346.49,3.61784,-1,0.514722
5351.49,3.61617,-1,0.513333
5356.49,3.6145,-1,0.511944
5361.49,3.61284,-1,0.510556
5366.49,3.61117,-1,0.509167
5371.49,3.6095,-1,0.507778
5376.49,3.60784,-1,0.506389
5381.49,3.60617,-1,0.505
5386.5,3.6045,-1,0.503611
5391.5,3.60283,-1,0.502222
5396.5,3.60117,-1,0.500833
5401.5,3.5995,-1,0.499444
5406.5,3.59783,-1,0.498056
5411.5,3.59617,-1,0.496667
5416.5,3.5945,-1,0.495278
5421.51,3.59283,-1,0.493889
5426.51,3.59116,-1,0.4925
5431.51,3.5895,-1,0.491111
5436.51,3.58783,-1,0.489722
5441.51,3.58616,-1,0.488333
5446.51,3.5845,-1,0.486944
5451.51,3.58283,-1,0.485556
5456.52,3.58116,-1,0.484167
5461.52,3.57949,-1,0.482778
5466.52,3.57783,-1,0.481389
5471.52,3.57616,-1,0.48
5476.52,3.57449,-1,0.478611
5481.52,3.57283,-1,0.477222
5486.52,3.57116,-1,0.475833
5491.53,3.56949,-1,0.474444
5496.53,3.56782,-1,0.473056
5501.53,3.56616,-1,0.471667
5506.53,3.56449,-1,0.470278
5511.53,3.56282,-1,0.468889
5516.53,3.56116,-1,0.4675
5521.53,3.55949,-1,0.466111
5526.54,3.55782,-1,0.464722
5531.54,3.55615,-1,0.463333
5536.54,3.55449,-1,0.461944
5541.54,3.55282,-1,0.460556
5546.54,3.55115,-1,0.459167
5551.54,3.54949,-1,0.457778
5556.54,3.54782,-1,0.456389
5561.54,3.54615,-1,0.455
5566.55,3.54448,-1,0.453611
5571.55,3.54282,-1,0.452222
5576.55,3.54115,-1,0.450833
5581.55,3.53948,-1,0.449444
5586.55,3.53782,-1,0.448056
5591.55,3.53615,-1,0.446667
5596.55,3.53448,-1,0.445278
5601.56,3.53281,-1,0.443889
5606.56,3.53115,-1,0.4425
5611.56,3.52948,-1,0.441111
5616.56,3.52781,-1,0.439722
5621.56,3.52615,-1,0.438333
5626.56,3.52448,-1,0.436944
5631.56,3.52281,-1,0.435556
5636.57,3.52114,-1,0.434167
5641.57,3.51948,-1,0.432778
5646.57,3.51781,-1,0.431389
5651.57,3.51614,-1,0.43
5656.57,3.51448,-1,0.428611
5661.57,3.51281,-1,0.427222
5666.57,3.51114,-1,0.425833
5671.58,3.50947,-1,0.424444
5676.58,3.50781,-1,0.423056
5681.58,3.50614,-1,0.421667
5686.58,3.50447,-1,0.420278
5691.58,3.50281,-1,0.418889
5696.58,3.50114,-1,0.4175
5701.58,3.49947,-1,0.416111
5706.59,3.4978,-1,0.414722
5711.59,3.49614,-1,0.413333
5716.59,3.49447,-1,0.411944
5721.59,3.4928,-1,0.410556
5726.59,3.49114,-1,0.409167
5731.59,3.48947,-1,0.407778
5736.59,3.4878,-1,0.406389
5741.59,3.48614,-1,0.405
5746.6,3.48447,-1,0.403611
5751.6,3.4828,-1,0.402222
5756.6,3.48113,-1,0.400833
5761.6,3.47947,-1,0.399444
5766.6,3.4778,-1,0.398056
5771.6,3.47613,-1,0.396667
5776.6,3.47447,-1,0.395278
5781.61,3.4728,-1,0.393889
5786.61,3.47113,-1,0.3925
5791.61,3.46946,-1,0.391111
5796.61,3.4678,-1,0.389722
5801.61,3.46613,-1,0.388333
5806.61,3.46446,-1,0.386944
5811.61,3.4628,-1,0.385556
5816.62,3.46113,-1,0.384167
5821.62,3.45946,-1,0.382778
5826.62,3.45779,-1,0.381389
5831.62,3.45613,-1,0.38
5836.62,3.45446,-1,0.378611
5841.62,3.45279,-1,0.377222
5846.62,3.45113,-1,0.375833
5851.63,3.44946,-1,0.374444
5856.63,3.44779,-1,0.373056
5861.63,3.44612,-1,0.371667
5866.63,3.44446,-1,0.370278
5871.63,3.44279,-1,0.368889
5876.63,3.44112,-1,0.3675
5881.63,3.43946,-1,0.366111
5886.64,3.43779,-1,0.364722
5891.64,3.43612,-1,0.363333
5896.64,3.43445,-1,0.361944
5901.64,3.43279,-1,0.360556
5906.64,3.43112,-1,0.359167
5911.64,3.42945,-1,0.357778
5916.64,3.42779,-1,0.356389
5921.64,3.42612,-1,0.355
5926.65,3.42445,-1,0.353611
5931.65,3.42278,-1,0.352222
5936.65,3.42112,-1,0.350833
5941.65,3.41945,-1,0.349444
5946.65,3.41778,-1,0.348056
5951.65,3.41612,-1,0.346667
5956.65,3.41445,-1,0.345278
5961.66,3.41278,-1,0.343889
5966.66,3.41111,-1,0.3425
5971.66,3.40945,-1,0.341111
5976.66,3.40778,-1,0.339722
5981.66,3.40611,-1,0.338333
5986.66,3.40445,-1,0.336944
5991.66,3.40278,-1,0.335556
5996.67,3.40111,-1,0.334167
6001.67,3.39944,-1,0.332778
6006.67,3.39778,-1,0.331389
6011.67,3.39611,-1,0.33
6016.67,3.39444,-1,0.328611
6021.67,3.39278,-1,0.327222
6026.67,3.39111,-1,0.325833
6031.68,3.38944,-1,0.324444
6036.68,3.38777,-1,0.323056
6041.68,3.38611,-1,0.321667
6046.68,3.38444,-1,0.320278
6051.68,3.38277,-1,0.318889
6056.68,3.38111,-1,0.3175
6061.68,3.37944,-1,0.316111
6066.69,3.37777,-1,0.314722
6071.69,3.3761,-1,0.313333
6076.69,3.37444,-1,0.311944
6081.69,3.37277,-1,0.310556
6086.69,3.3711,-1,0.309167
6091.69,3.36944,-1,0.307778
6096.69,3.36777,-1,0.306389
6101.69,3.3661,-1,0.305
6106.7,3.36443,-1,0.303611
6111.7,3.36277,-1,0.302222
6116.7,3.3611,-1,0.300833
6121.7,3.35943,-1,0.299444
6126.7,3.35777,-1,0.298056
6131.7,3.3561,-1,0.296667
6136.7,3.35443,-1,0.295278
6141.71,3.35276,-1,0.293889
6146.71,3.3511,-1,0.2925
6151.71,3.34943,-1,0.291111
6156.71,3.34776,-1,0.289722
6161.71,3.3461,-1,0.288333
6166.71,3.34443,-1,0.286944
6171.71,3.34276,-1,0.285556
6176.72,3.34109,-1,0.284167
6181.72,3.33943,-1,0.282778
6186.72,3.33776,-1,0.281389
6191.72,3.33609,-1,0.28
6196.72,3.33443,-1,0.278611
6201.72,3.33276,-1,0.277222
6206.72,3.33109,-1,0.275833
6211.73,3.32942,-1,0.274444
6216.73,3.32776,-1,0.273056
6221.73,3.32609,-1,0.271667
6226.73,3.32442,-1,0.270278
6231.73,3.32276,-1,0.268889
6236.73,3.32109,-1,0.2675
6241.73,3.31942,-1,0.266111
6246.74,3.31775,-1,0.264722
6251.74,3.31609,-1,0.263333
6256.74,3.31442,-1,0.261944
6261.74,3.31275,-1,0.260556
6266.74,3.31109,-1,0.259167
6271.74,3.30942,-1,0.257778
6276.74,3.30775,-1,0.256389
6281.74,3.30609,-1,0.255
6286.75,3.30442,-1,0.253611
6291.75,3.30275,-1,0.252222
6296.75,3.30108,-1,0.250833
6301.75,3.29942,-1,0.249444
6306.75,3.29775,-1,0.248056
6311.75,3.29608,-1,0.246667
6316.75,3.29442,-1,0.245278
6321.76,3.29275,-1,0.243889
6326.76,3.29108,-1,0.2425
6331.76,3.28941,-1,0.241111
6336.76,3.28775,-1,0.239722
6341.76,3.28608,-1,0.238333
6346.76,3.28441,-1,0.236944
6351.76,3.28275,-1,0.235556
6356.77,3.28108,-1,0.234167
6361.77,3.27941,-1,0.232778
6366.77,3.27774,-1,0.231389
6371.77,3.27608,-1,0.23
6376.77,3.27441,-1,0.228611
6381.77,3.27274,-1,0.227222
6386.77,3.27108,-1,0.225833
6391.78,3.26941,-1,0.224444
6396.78,3.26774,-1,0.223056
6401.78,3.26607,-1,0.221667
6406.78,3.26441,-1,0.220278
6411.78,3.26274,-1,0.218889
6416.78,3.26107,-1,0.2175
6421.78,3.25941,-1,0.216111
6426.79,3.25774,-1,0.214722
6431.79,3.25607,-1,0.213333
6436.79,3.2544,-1,0.211944
6441.79,3.25274,-1,0.210556
6446.79,3.25107,-1,0.209167
6451.79,3.2494,-1,0.207778
6456.79,3.24774,-1,0.206389
6461.79,3.24607,-1,0.205
6466.8,3.2444,-1,0.203611
6471.8,3.24273,-1,0.202222
6476.8,3.24107,-1,0.200833
6481.8,3.2394,-1,0.199444
6486.8,3.23773,-1,0.198056
6491.8,3.23607,-1,0.196667
6496.8,3.2344,-1,0.195278
6501.81,3.23273,-1,0.193889
6506.81,3.23106,-1,0.1925
6511.81,3.2294,-1,0.191111
6516.81,3.22773,-1,0.189722
6521.81,3.22606,-1,0.188333
6526.81,3.2244,-1,0.186944
6531.81,3.22273,-1,0.185556
6536.82,3.22106,-1,0.184167
6541.82,3.21939,-1,0.182778
6546.82,3.21773,-1,0.181389
6551.82,3.21606,-1,0.18
6556.82,3.21439,-1,0.178611
6561.82,3.21273,-1,0.177222
6566.82,3.21106,-1,0.175833
6571.83,3.20939,-1,0.174444
6576.83,3.20772,-1,0.173056
6581.83,3.20606,-1,0.171667
6586.83,3.20439,-1,0.170278
6591.83,3.20272,-1,0.168889
6596.83,3.20106,-1,0.1675
6601.83,3.19939,-1,0.166111
6606.84,3.19772,-1,0.164722
6611.84,3.19605,-1,0.163333
6616.84,3.19439,-1,0.161944
6621.84,3.19272,-1,0.160556
6626.84,3.19105,-1,0.159167
6631.84,3.18939,-1,0.157778
6636.84,3.18772,-1,0.156389
6641.84,3.18605,-1,0.155
6646.85,3.18438,-1,0.153611
6651.85,3.18272,-1,0.152222
6656.85,3.18105,-1,0.150833
6661.85,3.17938,-1,0.149444
6666.85,3.17772,-1,0.148056
6671.85,3.17605,-1,0.146667
6676.85,3.17438,-1,0.145278
6681.86,3.17271,-1,0.143889
6686.86,3.17105,-1,0.1425
6691.86,3.16938,-1,0.141111
6696.86,3.16771,-1,0.139722
6701.86,3.16605,-1,0.138333
6706.86,3.16438,-1,0.136944
6711.86,3.16271,-1,0.135556
6716.87,3.16104,-1,0.134167
6721.87,3.15938,-1,0.132778
6726.87,3.15771,-1,0.131389
6731.87,3.15604,-1,0.13
6736.87,3.15438,-1,0.128611
6741.87,3.15271,-1,0.127222
6746.87,3.15104,-1,0.125833
6751.88,3.14937,-1,0.124444
6756.88,3.14771,-1,0.123056
6761.88,3.14604,-1,0.121667
6766.88,3.14437,-1,0.120278
6771.88,3.14271,-1,0.118889
6776.88,3.14104,-1,0.1175
6781.88,3.13937,-1,0.116111
6786.89,3.1377,-1,0.114722
6791.89,3.13604,-1,0.113333
6796.89,3.13437,-1,0.111944
6801.89,3.1327,-1,0.110556
6806.89,3.13104,-1,0.109167
6811.89,3.12937,-1,0.107778
6816.89,3.1277,-1,0.106389
6821.89,3.12604,-1,0.105
6826.9,3.12437,-1,0.103611
6831.9,3.1227,-1,0.102222
6836.9,3.12103,-1,0.100833
6841.9,3.11937,-1,0.0994444
6846.9,3.1177,-1,0.0980556
6851.9,3.11603,-1,0.0966667
6856.9,3.11437,-1,0.0952778
6861.91,3.1127,-1,0.0938889
6866.91,3.11103,-1,0.0925
6871.91,3.10936,-1,0.0911111
6876.91,3.1077,-1,0.0897222
6881.91,3.10603,-1,0.0883333
6886.91,3.10436,-1,0.0869444
6891.91,3.1027,-1,0.0855556
6896.92,3.10103,-1,0.0841667
6901.92,3.09936,-1,0.0827778
6906.92,3.09769,-1,0.0813889
6911.92,3.09603,-1,0.08
6916.92,3.09436,-1,0.0786111
6921.92,3.09269,-1,0.0772222
6926.92,3.09103,-1,0.0758333
6931.93,3.08936,-1,0.0744444
6936.93,3.08769,-1,0.0730556
6941.93,3.08602,-1,0.0716667
6946.93,3.08436,-1,0.0702778
6951.93,3.08269,-1,0.0688889
6956.93,3.08102,-1,0.0675
6961.93,3.07936,-1,0.0661111
6966.94,3.07769,-1,0.0647222
6971.94,3.07602,-1,0.0633333
6976.94,3.07435,-1,0.0619444
6981.94,3.07269,-1,0.0605556
6986.94,3.07102,-1,0.0591667
6991.94,3.06935,-1,0.0577778
6996.94,3.06769,-1,0.0563889
7001.94,3.06602,-1,0.055
7006.95,3.06435,-1,0.0536111
7011.95,3.06268,-1,0.0522222
7016.95,3.06102,-1,0.0508333
7021.95,3.05935,-1,0.0494444
7026.95,3.05768,-1,0.0480556
7031.95,3.05602,-1,0.0466667
7036.95,3.05435,-1,0.0452778
7041.96,3.05268,-1,0.0438889
7046.96,3.05101,-1,0.0425
7051.96,3.04935,-1,0.0411111
7056.96,3.04768,-1,0.0397222
7061.96,3.04601,-1,0.0383333
7066.96,3.04435,-1,0.0369444
7071.96,3.04268,-1,0.0355556
7076.97,3.04101,-1,0.0341667
7081.97,3.03934,-1,0.0327778
7086.97,3.03768,-1,0.0313889
7091.97,3.03601,-1,0.03
7096.97,3.03434,-1,0.0286111
7101.97,3.03268,-1,0.0272222
7106.97,3.03101,-1,0.0258333
7111.98,3.02934,-1,0.0244444
7116.98,3.02767,-1,0.0230556
7121.98,3.02601,-1,0.0216667
7126.98,3.02434,-1,0.0202778
7131.98,3.02267,-1,0.0188889
7136.98,3.02101,-1,0.0175
7141.98,3.01934,-1,0.0161111
7146.99,3.01767,-1,0.0147222
7151.99,3.016,-1,0.0133333
7156.99,3.01434,-1,0.0119444
7161.99,3.01267,-1,0.0105556
7166.99,3.011,-1,0.00916667
7171.99,3.00934,-1,0.00777778
7176.99,3.00767,-1,0.00638889
7181.99,3.006,-1,0.005
7187,3.00433,-1,0.00361111
7192,3.00267,-1,0.00222222
7197,3.001,-1,0.000833333
7200.0,3.0,-1,0.0